{"know": 15, "it\u2019s": 14, "10x": 2, "better": 8, "person": 5, "48552121": 7, "think": 18, "leaving": 3, "someone": 13, "prison": 3, "widdled": 1, "nothing": 2, "like": 43, "happens": 1, "american": 3, "does?": 1, "cannot": 3, "make": 22, "plain.": 1, "intent": 1, "irrelevant.": 1, "act": 2, "releasing": 2, "reduces": 1, "harm.": 2, "harmful": 2, "condition": 2, "increase": 2, "_999": 1, "keep": 4, "out.....": 1, "dad": 1, "used": 6, "record": 1, "vhs": 1, "porno": 1, "hide....": 1, "\ud83e\udd23\ud83e\udd23\ud83e\udd23\ud83e\udd23": 2, "extremist": 1, "mormon": 1, "avoid": 1, "saying": 6, "dumbest": 1, "shit": 6, "ever": 6, "challenge": 5, "(impossible)": 1, "super": 2, "insaneee": 1, "2019": 1, "self": 5, "won\u2019t": 3, "believe": 1, "2016": 2, "literally": 4, "hoped": 1, "1977": 1, "74428050": 1, "\"keep": 1, "people": 8, "country": 7, "built": 2, "for.": 1, "give": 9, "u": 25, "tired,": 1, "poor.\"": 1, "spend": 3, "several": 1, "hundred": 1, "year": 20, "creating": 4, "sovereignty,": 1, "free": 7, "all.": 1, "line": 3, "quote,": 1, "that's": 6, "garbage": 1, "statue": 1, "liberty,": 1, "constitution.": 1, "hi": 2, "miss": 3, "kk.": 1, "sorry": 2, "that.": 5, "kindly": 1, "dm": 2, "phone": 2, "number,": 1, "full": 6, "name": 5, "registered": 1, "id": 2, "number": 4, "check": 4, "advise.": 1, "^js": 3, "_": 8, "haha": 1, "appreciate": 2, "you!": 2, "yeah": 1, "agree,": 1, "fun": 4, "game": 15, "introduces": 1, "web3": 6, "isn\u2019t": 1, "$$": 1, "true": 6, "onboarder.": 1, "fortnite": 1, "blockchain": 2, "skin": 2, "example.": 1, "seeing": 2, "girl": 3, "treat": 1, "guy": 4, "bsf": 2, "sick": 1, "bruh,": 1, "love": 16, "n": 11, "care": 7, "yall": 2, "bitch": 3, "loved": 7, "\ud83e\udd26\u200d\u2640\ufe0f": 1, "everyone\u2019s": 1, "got": 10, "price": 2, "would": 6, "fold": 1, "thinking": 2, "you\u2019re": 3, "priceless.": 1, "purchase": 2, "m": 1, "lady": 2, "yes": 3, "pick": 1, "shid": 1, "went": 3, "modern": 3, "day": 22, "slavery": 1, "adopted": 1, "shid.": 1, "ik": 1, "worth": 13, "cheap": 1, "ether,": 1, "gon": 1, "hold": 5, "im": 12, "tellinya": 1, "god": 4, "forgot": 1, "fine": 2, "saeran": 1, "forget": 4, "ray...": 1, "time": 11, "around": 3, "ima": 2, "alone": 2, "heal.": 1, "company.": 4, "myself.": 1, "cash": 2, "\ud83d\udcb0": 1, "said": 10, "one": 18, "hesitate": 1, "correct": 2, "corrects": 1, "without": 3, "made": 4, "mistake.": 1, "see": 13, "i\u2019m": 13, "usually": 2, "fam": 1, "3/4": 1, "til": 2, "midnight.": 1, "hanging": 1, "&amp;": 12, "even": 14, "club.": 1, "thanksgiving": 1, "christmas": 5, "that\u2019s": 6, "club": 1, "thought": 6, "wanna": 5, "sleep": 1, "gm": 1, "sassy\u2728": 1, "10": 4, "ai": 2, "prediction": 1, "2023": 4, "artificialintelligence": 1, "fintech": 1, "learning": 8, "via": 4, "wtb": 1, "lf": 1, "svt": 2, "ph": 2, "|": 4, "help": 8, "rt": 1, "!": 2, "\u3164\u06ea\u3164\u06eb": 1, "\u2661": 1, "joshua": 2, "choice": 3, "yzy": 2, "b": 9, "\ud80c\udfd4": 3, "onhand,": 1, "mint": 1, "condi": 1, "preferably": 1, "mm": 1, "offer": 2, "seventeen": 1, "yizhiyu": 1, "ver": 2, "yc": 1, "\u2022": 3, "type": 2, "conversion/casting": 1, "expensive": 2, "matching": 2, "regex": 1, "many": 7, "short": 3, "string": 3, "long": 3, "computer": 1, "faster": 1, "coding": 20, "gonna": 4, "tough": 1, "trade.": 1, "wud": 6, "put": 6, "long,": 2, "go": 12, "further,": 1, "doubt": 2, "urself,": 1, "night": 1, "close": 5, "ur": 9, "right": 3, "et,": 1, "bloc": 1, "export": 1, "standard": 1, "html+css+js": 1, "find": 4, "hosting": 1, "fine.": 2, "publishing": 1, "disabled": 3, "trial": 1, "\ud83d\ude05": 2, "javscript": 2, "module": 2, "cheatsheet": 1, "beginner": 2, "programmer....": 1, "listed": 1, "way": 8, "export/import": 1, "basically": 2, "done": 4, "multiple": 3, "ways.": 1, "_but_tired": 3, "500": 5, "refused": 2, "adding": 3, "cover": 2, "btw": 1, "animating": 1, "revie": 2, "precise": 1, "yesh.": 1, "recency": 1, "bias.": 1, "young": 1, "happening": 1, "best": 11, "worst": 3, "things?": 1, "happened": 1, "happen": 2, "future,just": 1, "enjoy": 3, "cope": 1, "era.": 1, "@883junior": 1, "_exchange": 10, "solve": 8, "this?": 9, "issue": 11, "lbank": 4, "trend": 1, "hopper,": 1, "look": 9, "good": 16, "wear": 1, "it.": 5, "28416254": 1, "unless": 3, "shown": 1, "bbc1,": 1, "case": 4, "bos": 1, "cat": 2, "\ud83d\ude02\ud83d\ude02\ud83d\ude02\ud83d\ude02\ud83d\ude02": 1, "billy": 1, "kat": 1, "count": 2, "?": 2, "matter": 3, "strength": 2, "one\u2019s": 2, "fate.": 2, "_emilly": 3, "dope": 1, "githubunwrapped!": 2, "get": 13, "own:": 2, "\ud83d\ude06it": 1, "seems": 2, "model": 1, "detect's": 1, "dart": 1, "want": 13, "learn": 11, "thread": 1, "\ud83d\udc47": 5, "talked": 1, "co": 1, "director": 1, "sadly": 1, "eh": 1, "thx": 1, "making": 3, "anyways": 1, "ihave": 1, "introduction": 2, "web": 15, "development": 11, "course": 8, "developer": 22, "programming": 24, "tech": 10, "software": 8, "ad": 3, "elearning": 2, "posted": 1, "photo": 1, "@": 3, "melanie": 1, "jayne's": 1, "beauty": 1, "aesthetic": 1, "clinic": 1, "-": 25, "mj\u2019s": 1, "_sony007": 1, "middle": 1, "pretend": 1, "james": 1, "bond": 1, "gunbarrel": 1, "address": 3, "though": 4, "scale": 1, "idea": 2, "start": 6, "0": 1, "going": 7, "jail": 3, "-5": 1, "-2": 1, "definitely": 2, "lasting": 1, "harm": 2, "actively": 2, "sometimes": 5, "giving": 2, "social": 2, "worker": 2, "honestly": 3, "probably": 4, "-6": 1, "active": 2, "insult": 1, "smt.": 1, "671,": 1, "(crops)": 1, "shared": 1, "importance": 1, "millet": 1, "special": 4, "luncheon": 1, "event": 4, "organised": 1, "parliament": 1, "house,": 1, "delhi": 1, "20.12.22.": 1, "iym2023": 1, "671": 1, "_india": 2, "private": 1, "105\u00b0": 1, "feel": 9, "hot": 2, "me.": 3, "0buu": 1, "underrated": 1, "favorite": 2, "2011": 1, "12": 3, "found": 4, "interesting,": 1, "thanks": 4, "opportunity": 2, "nitdablockchain": 1, "domenium": 1, "calistusigwilo": 1, "golden": 1, "draft": 1, "blew": 1, "it!": 1, "1": 8, "_quant": 1, "please": 9, "guide": 1, "others": 3, "looting": 1, "\ud83d\ude02": 3, "\ud83c\udf89\ud83c\udf82happy": 1, "birthday": 1, "\ud83c\udf82\ud83c\udf89": 1, "using": 8, "chat": 1, "gpt": 1, "finally": 3, "pair": 1, "programmer": 10, "somehow": 1, "always": 5, "solution": 2, "i'm": 15, "stuck.": 1, "also": 5, "wait": 1, "times\ud83d\ude02": 1, "available.": 1, "nodejs": 3, "wrapping": 1, "present": 3, "\u2764\ufe0f": 1, "bet": 1, "still": 11, "trump": 2, "president": 1, "ouch": 1, "_ruv01": 1, "hdkdksdkdk": 1, "exactly": 1, "realized": 1, "word": 3, "ok": 3, "spelled": 1, "okay": 3, "abbreviation": 1, "\u2606": 1, "terry": 1, "hall,": 1, "lead": 4, "singer": 1, "specials,": 1, "dy": 1, "63": 1, "breakingnews": 1, "cbsnews": 1, "\u2708\u2708\u2708": 1, "\ud83c\uddfa\ud83c\uddf8": 1, "marine": 1, "veteran": 2, "fullstack": 4, "year!": 2, "great": 5, "success": 1, "story": 3, "\u261d\ufe0f\ud83d\udc4f\ud83c\udffb\ud83d\udc4f\ud83c\udffc\ud83d\udc4f\ud83c\udffd": 1, "luck": 1, "changwoo": 1, "\ud83d\udc4d": 3, "vetswhocode": 1, "job": 14, "code": 11, "hiring": 8, "codenewbie": 3, "technology": 4, "learntocode": 1, "_ste": 1, "need": 12, "outfit!!!!": 1, "8888": 1, "234xoxoxo": 1, "aint": 1, "defending": 2, "fact": 2, "\ud83e\udd1e\ud83c\udffe\u2665\ufe0f": 1, "superb": 1, "huge": 2, "problem,": 1, "bill": 2, "gate": 1, "behind": 1, "he\u2019s": 2, "scientist,": 1, "way.": 1, "13464453": 1, "6": 1, "i\u2019d": 1, "silly": 1, "rad,": 1, "kevin!": 1, "trendy": 3, "zoologist,": 1, "engineer.": 2, "1den": 2, "don\u2019t": 13, "gain": 1, "50": 1, "lbs.": 1, "nigga": 2, "expect": 2, "drop": 2, "accommodate": 1, "schedule.": 1, "there\u2019s": 2, "life": 8, "amagulu": 1, "9834": 2, "bro": 3, "animate": 1, "\ud83d\udc80": 2, "eight": 1, "bell": 1, "toll": 1, "\u2026.": 1, "another": 3, "list": 2, "0grammerhum0r": 1, "could": 7, "disagree": 1, "more.": 2, "javascript\u2019s": 1, "ubiquity.": 1, "language": 14, "interesting": 1, "error": 1, "prone": 1, "pita": 1, "debug.": 1, "use": 8, "must": 1, "writing": 3, "node-red,": 1, "i\u2019ve": 2, "lately.": 1, "really": 6, "kind": 2, "hate": 6, "learning:": 1, "1.": 8, "2.": 8, "3.": 7, "python": 23, "birthday\ud83c\udf82": 1, "_awaaz": 1, "@_anujsinghal": 1, "sebi": 1, "money.": 3, "concerned": 1, "money": 5, "cool": 3, "damn": 3, "retailers.": 1, "extended": 1, "market": 3, "closing": 1, "totally": 2, "clear": 1, "11": 1, "100daysofcodingchallenge": 1, "css:-": 1, "practicing": 1, "letscode": 1, "course,": 1, "usaid?": 1, "national": 1, "endowment": 1, "democracy?": 1, "overthrow": 1, "government": 3, "holding": 2, "power...": 1, "humanitarian": 1, "organizations?": 1, "dis": 1, "ponzi": 1, "pampin": 1, "waiting": 3, "support.": 1, "lot": 4, "scammer": 1, "trying": 1, "twitter": 5, "\ud83e\udd23": 2, "nice,": 1, "read": 4, "basic": 1, ":)": 2, "weird": 1, "actually": 3, "finished": 4, "study": 1, "dr.": 1, "able": 3, "swift.": 1, "milestone": 1, "\ud83e\udd14": 2, "new": 13, "anymore.": 2, "9built": 1, "bumper": 1, "plate": 1, "dropped": 1, "\ud83e\udd14\ud83d\ude02\ud83d\ude02\ud83d\ude02\ud83d\ude02\ud83d\ude02\ud83d\ude02\ud83d\ude02\ud83d\ude02\ud83d\ude02": 1, "morning": 6, "blondie": 1, "1321": 1, "fed": 1, "asked": 1, "federal": 2, "stop": 3, "spending": 1, "much": 10, "do?": 1, "money!": 2, "_chico1": 1, "deny": 1, "leg": 2, "01": 1, "@_videlle": 1, "replying": 1, "nah.": 1, "baby": 5, "cry": 2, "home": 1, "oh": 5, "/js": 1, "foxiny": 1, "dong": 1, "\ud83d\ude0d": 2, "\u25e6check": 1, "gig": 1, "vector": 3, "tracing/vectorization": 1, "conversion": 1, "raster": 1, "graphic": 1, "graphics,": 1, "image": 3, "tracing": 1, "tracing.": 1, "vectorillustration": 1, "vectortracing": 1, "vectorart": 1, "100daysofcode": 8, "100daysofcodechallenge": 1, "bc": 1, "\u2026": 1, "spam": 2, "acc": 1, "ir": 1, "something": 4, "regret": 2, "camping": 1, "7": 3, "minute": 4, "w": 3, "personally": 1, "set": 2, "entertaining": 1, "\u2726": 1, "javascript,": 2, "null": 2, "undefined": 2, "value": 2, "represent": 1, "absence": 1, "object.": 1, "difference": 1, "\ud83d\ude80": 3, "\ud83e\uddf5\ud83d\udc47": 1, "helped": 3, "black": 9, "knight!": 1, "assisted": 1, "knight": 2, "party": 2, "prep!": 1, "winter-festival": 1, "hitch?": 1, "bkpartyprep!": 1, "*available": 1, "dec.": 1, "31,": 1, "23:59": 1, "website": 9, "layout": 1, "design": 3, "easy": 3, "navigate": 1, "use.": 2, "it,": 5, "visit": 5, "website:": 1, "webdesign": 4, "graphicdesign": 1, "seo": 3, "logo": 2, "designer": 2, "uiux": 1, ",": 6, "_us": 1, "thanks.": 1, "favorite,": 2, "simple,": 1, "elegant": 1, "least": 1, "messy": 1, "due": 2, "bad": 4, "lack": 2, "courage": 1, "completely": 2, "errors.": 1, "tbh": 2, "problem": 1, "99%": 1, "community": 1, "$.": 1, "gamers": 1, "space": 2, "yet": 2, "sand": 1, "table": 1, "panther.": 1, "ok,": 1, "so:": 1, ".net": 1, "core,": 1, ".net,": 2, "microsoft": 2, "rebranding": 1, "stuff\ud83d\ude01": 1, "core": 2, "framework,": 2, "top": 4, "building": 1, "apps": 1, "(front": 1, "back": 9, "ends).": 1, "similar": 1, "express": 2, "js,": 2, "framework": 5, "nodejs.": 1, "hey": 2, "wish": 3, "asynchronous...": 1, "callback.": 1, "programmingjoke": 1, "programminghumor": 4, "chuck": 1, "mention": 2, "4": 1, "hours.": 1, "test": 3, "weren\u2019t": 1, "properly": 1, "executed,": 1, "failed": 1, "reason.": 1, "programmingmemes": 4, "available": 1, "assignment": 1, "goodfirstissue": 1, "meshery/meshery.io": 1, "remove": 1, "border": 2, "radius": 1, "getting": 8, "started": 4, "section.": 1, "developer,": 1, "date": 1, "ui/ux": 1, "babe.": 1, "woke": 2, "chore:": 1, "add": 3, "frontend": 5, "github": 6, "typescript": 7, "shell": 2, "dnd": 1, "addiction.": 1, "picture": 1, "seinfeld?": 1, "unfortunately": 1, "disqualified": 1, "winning": 2, "mvp": 1, "season,": 1, "might": 4, "deserving.": 1, "is?": 1, "friday": 1, "/": 7, "cyber": 1, "monday": 1, "wordpress": 5, "deal": 3, "photoshop": 2, "fulfilled": 1, "promise!": 1, "slow": 1, "steady": 1, "win": 2, "race.": 1, "-javascript": 1, "1337": 1, "that?": 1, "node.js": 5, "mongodb": 3, "completed": 1, "jschallenger": 2, "received": 1, "official": 1, "intermediate": 1, "badge": 1, "\ud83d\ude0e": 3, "codinglife": 3, "_challenger": 1, "job,": 1, "texas.": 1, "\"once": 1, "upon": 2, "boy": 4, "girl,": 1, "laughter": 1, "question": 3, "wanted": 2, "whole": 4, "answering.\"": 1, "\u2014": 1, "nicole": 1, "krauss": 1, "popular": 1, "demand": 3, "2023:": 1, "4.": 5, "5.": 5, "kotlin": 2, "6.": 2, "php": 3, "7.": 1, "8.": 1, "swift": 1, "9.": 2, "10.": 1, "ruby": 3, "11.": 1, "c++": 3, "12.": 1, "matlab": 1, "13.": 1, "14.": 1, "scala": 1, "opened": 1, "5stock": 1, "\ud83d\ude2d": 6, "pretending": 1, "6.5": 3, "million": 3, "justice": 3, "system": 5, "broke": 2, "law": 1, "warrant": 1, "system?": 1, "context": 2, "peak": 1, "gulag": 4, "1.2": 1, "population...": 1, "likely": 2, "2022": 4, "work": 10, "salvation": 1, "example": 1, "tweet": 2, "fluffly": 1, "prince": 2, "kanin": 1, "watch": 4, "next": 5, "teaser": 1, "guys.": 1, "leggo": 1, "1m": 1, "views.": 1, "google": 2, "crawl": 1, "content": 2, "react,": 2, "angular-like": 1, "default?": 1, "answer": 3, "\"": 3, "struggle": 2, "lot!": 1, "sure": 2, "100%": 2, "crawlable": 1, "boost": 3, "visibility": 1, "search": 2, "engine": 2, "javascriptseo": 1, "react": 14, "angular": 6, "nextjs": 2, "tf": 1, "men": 1, "trust": 1, "vinyl": 1, "thankyouu": 1, "\ud83d\ude2d\ud83d\ude2d\ud83d\ude2d\ud83d\udc9a": 1, "vote": 6, "kimtaehyung": 4, "asian": 5, "celebrity": 5, "acoty2022": 5, "netizensrepoacoty2022kimtaehyung": 4, "princepipes": 1, "\ud83c\uddee\ud83c\uddf3": 7, "nse": 7, "block": 7, "94,901": 1, "share": 8, "rs.": 7, "595.20": 1, "5.65": 1, "crore": 7, "rupee": 7, "12:39": 1, "pm": 7, "blockdeal": 4, "intraday": 4, "trade": 4, "helpful,": 1, "re-tweet": 1, "follow": 1, "@2seatlimousine": 1, "wiping": 1, "weirdly": 1, "backend": 3, "consider": 1, "webdevelopment": 8, "webdeveloper": 8, "html": 16, "cs": 13, "digitalmarketing": 1, "websitedesign": 1, "webdesigner": 3, "marketing": 1, "corporate": 1, "socialism?": 1, "_tandon": 1, "teaching.": 1, "showing": 2, "fool": 1, "around.": 1, "business": 1, "grow.": 1, "lol": 8, "thing": 6, "comment": 1, "anything": 9, "wrong": 4, "tl,": 1, "dog": 1, "barking.": 1, "eat": 2, "open": 3, "dinner": 2, "gourmet": 1, "regular": 1, "white": 1, "family": 2, "\ud83e\udd37\u200d\u2640\ufe0f": 1, "spot": 2, "died.": 1, "js.": 2, "absolutely": 2, "heart": 1, "broken.": 1, "old.": 1, "hee.": 1, "idk": 2, "reminds": 1, "wario": 1, "rsn\ud83d\ude2d": 1, "we've": 1, "created": 2, "called": 2, "formulascript,": 1, "compiles": 1, "excel": 1, "formulas.": 1, "bit": 3, "this.": 3, "axisbank": 1, "61,527": 1, "946.10": 1, "5.82": 1, "12:38": 1, "yesbank": 2, "25,16,352": 1, "20.75": 1, "5.22": 1, "12:36": 1, "maybe": 4, "\ud83d\ude2f.": 1, "blog": 2, "post": 2, ":": 2, "reference": 1, "architecture,": 1, "part": 1, "11:": 1, "typical": 1, "workflow": 1, "feat:": 1, "deleting": 1, "moving": 1, "forward": 1, "henry": 1, "cavill,": 1, "rock,": 1, "biggest": 2, "mistake": 2, "career.": 1, "_js": 8, "note,": 1, "2021": 2, "*with*": 1, "log4j": 2, "50%.": 2, "\"i": 2, "effort\",": 1, "working": 5, "last": 8, "night,": 1, "video": 4, "tutorial": 1, "bedtime": 1, "\ud83d\ude33\ud83e\udd2b\ud83e\udd2d": 1, "webdev": 5, "man": 5, "swore": 1, "master": 2, "yagyu": 1, "asked,": 2, "\"that": 1, "so,": 2, "deep": 1, "conviction?\"": 1, "_ryota": 1, "_maims": 1, "javascript?": 3, "hope": 4, "so....": 1, "nowadays": 1, "spitting": 1, "lie": 1, "waterfall..": 1, "follower": 1, "\ud83d\ude00": 1, "ate": 1, "burnt": 1, "fry": 1, "@3jtown": 1, "first": 3, "knuffle": 1, "bunny,": 1, "second": 3, "kiggonggang,": 1, "daseulgi0114": 1, "jy": 1, "jh": 1, ":(": 1, "join": 1, "swear": 3, "wont": 2, "say": 7, "chill": 1, "\ud83d\ude1e": 1, "certain": 2, "never": 4, "be.": 1, "senior": 7, "engineer": 9, "hybrid": 1, "sonicwall": 1, "apply:": 3, "javascriptdeveloper": 3, "javascriptjobs": 3, "kubernetes": 1, "opensource": 1, "distributedsystem": 1, "docker": 1, "sql": 3, "cloud": 1, "_blue": 2, "hair": 3, "harness": 1, "timing": 1, "yes,": 3, "le": 3, "humane...": 1, "rich": 3, "poor": 1, "country?": 1, "15": 2, "library": 2, "beautiful": 1, "chart": 2, "\u261e": 3, "morioh": 3, "softwaredeveloper": 3, "computerscience": 3, "info": 2, "provides": 2, "information": 3, "including": 1, "tutorials,": 1, "exercises,": 1, "references.": 1, "alas,": 1, "gary!": 1, "creepy": 1, "engineer,": 1, "hierarchical": 1, "astronomer.": 1, "omnibus": 1, "passes,": 1, "$dxy": 1, "down.": 1, "details.": 1, "case,": 1, "(where": 1, "obviously": 1, "deployments,": 1, "specifically": 1, "that).": 1, "q4": 1, "blocks,": 1, "remotely": 1, "approaching": 1, "authentication/login": 1, "jwt": 2, "nextauth": 1, "protected": 1, "route": 2, "next.js": 3, "{": 1, "}": 1, "authentication": 2, "encryption": 1, "protectedroutes": 1, "56955385": 1, "too!": 1, "doe": 1, "two": 3, "fawns,": 1, "recently": 1, "lost": 2, "knee.": 1, "alright-ish,": 1, "couldn\u2019t": 1, "stand": 2, "cold.": 1, "dear": 1, "anna,": 1, "nice": 2, "day.": 1, "\u2615\ud83c\udf6c\u2728\ud83c\udf84\ud83c\udf80\ud83d\ude4b\ud83c\udffb\u200d\u2640\ufe0f": 1, "amal": 1, "looking": 3, "hire": 2, "baghdad.": 1, "register": 1, "apply": 1, "now!": 1, "baghdad": 1, "iraq": 1, "hawajobs": 1, "14": 1, "30daysofcode": 1, "today": 8, "tried": 1, "create": 4, "portfolio": 1, "little": 1, "count.": 2, "roman": 1, "era": 1, "2c": 1, "hotter": 1, "human": 2, "let's": 2, "global": 1, "warming": 1, "nonsense": 1, "lifetimes.": 1, "disproportionate": 1, "poc": 1, "representation?": 1, "\"have": 2, "back?\"": 1, "yeahh": 1, "thats": 1, "zee..": 1, "\ud83e\udd7a\ud83e\udd7a\ud83e\udd7a": 1, "lol.": 1, "golang": 2, "clever": 1, "enough": 1, "write": 2, "\ud83d\ude02\ud83d\ude02\ud83d\ude02.": 1, "typescript/javascript": 1, "devs": 2, "bound": 1, "optimize": 1, "performance?": 1, "_bareillynews": 1, "_hindustan": 1, "cute": 3, "nap": 1, "turn": 2, "bullsh\u00edt": 1, "knocked!!!": 1, "mamaaa": 1, "thesis": 2, "accepted": 1, "publication": 1, "dreamies": 1, "sane": 2, "\ud83d\ude2d\ud83e\udec2\ud83e\udec2": 1, "inspiration.": 1, "them.": 1, "_ips": 1, "_official": 1, "quote": 1, "velocity": 1, "stack": 5, "laravel": 4, "remote": 3, "us-cst,": 1, "us-est": 1, "europe-gmt:": 1, "api": 2, "fulltime": 1, "mysql": 2, "parttime": 1, "vue.js": 1, "shit,": 1, "song": 3, "immediately": 1, "took": 1, "different,": 1, "coherent": 1, "life.": 1, "eye": 2, "dead": 1, "-40": 1, "week": 1, "alberta": 1, "windchill.": 1, "climate": 2, "change": 4, "too?": 1, "climatescam": 1, "imo": 1, "every": 5, "soulsborne": 2, "difficulty": 1, "mode": 1, "jedi": 1, "fallen": 1, "order": 1, "otherwise": 1, "stuck": 1, "one.": 1, "pilot": 1, "take": 1, "mm2": 1, "godlys..\u2639\ufe0f\u2639\ufe0f": 1, "kokomi": 1, "nd": 1, "yelan": 1, "lvl": 1, "90": 1, "reason": 2, "can\u2019t": 2, "css.": 2, "engineer\u2019s": 1, "shortcut": 1, "frontend.": 1, "perhaps": 1, "try": 4, "project": 3, "already": 5, "decide": 1, "encourage": 1, "sort": 1, "thing.": 1, "acknowledge": 1, "feelings,": 1, "people(especially": 1, "feeling": 3, "with)": 1, "weight": 1, "impact": 3, "situation": 1, "action": 2, "mad": 1, "yelling.": 1, "&lt;3": 1, "corrected": 1, "2": 7, "mill": 1, "@_maatoa": 1, "cause": 6, "\ud83e\udd73\ud83e\udef6\ud83c\udffd": 1, "finish": 1, "tag": 1, "account": 3, "i'll": 2, "restored": 1, "secret": 1, "mod\ud83d\ude43": 1, "wait....cs": 1, "choose": 2, "slowest": 1, "member": 1, "reply": 1, "kkt?": 1, "$bnx": 1, "juz": 1, "sum": 1, "pamp": 1, "damp": 1, "movement.": 1, "caught": 2, "armpit": 1, "changing": 1, "narrative": 1, "\ud83d\ude2d\ud83d\ude2d": 2, "forever": 1, "\ud83d\udea8": 2, "launched!": 2, "\u27a1\ufe0f": 2, "\"alien": 1, "way\"": 1, "here:": 2, "html5games": 2, "html5": 2, "gamemonetize": 2, "gamedev": 2, "indiedev": 2, "2221": 1, "glad": 1, "bismack": 1, "piece": 2, "sexy": 1, "\ud83d\ude08\u2764\ud83e\udd1e": 1, "opinion,": 1, "someone's": 1, "worried": 3, "lunch": 1, "company": 2, "revenue": 1, "may": 3, "(": 1, "job)": 1, "\ud83d\udc81\u200d\u2640\ufe0f": 1, "hello": 4, "pls": 2, "biggboss16": 2, "contest": 4, "asap.": 2, "priyanka": 2, "leading": 2, "since": 4, "month": 4, "till": 2, "now,": 3, "bt": 2, "final": 2, "nimrit's": 2, "bot": 3, "activated": 2, "win.": 2, "hardly": 3, "fans.": 2, "priyankachaharchoudhary": 2, "priyankit": 1, "understand": 2, "term": 1, "means?": 1, "thank": 3, "gate.js": 1, "alternative": 1, "curation": 1, "user": 1, "crunch": 1, "endpoint": 1, "react.": 1, "cutting": 1, "edge.": 1, "helpful": 2, "reactjs": 8, "resources?": 1, "collection": 4, "extremely": 1, "useful": 2, "resources.": 1, "outsourcingservices": 1, "itoutsourcing": 1, "vittech": 1, "vittechpvtltd": 1, "forda": 1, "verified": 1, "ang": 1, "ferson": 1, "_trader_": 1, "sl": 2, "hit": 2, "reverse": 1, "entering.": 1, "43200": 1, "94": 1, "200.": 1, "43300": 1, "120": 1, "108.": 1, "low": 3, "106": 1, "260\ud83d\ude02": 1, "profile.": 1, "__rt": 1, "machinelearning": 1, "devcommunity": 1, "datascience": 3, "iot": 1, "100daysofmlcode": 1, "flutter": 1, "womenwhocode": 2, "rstats": 1, "logodesign": 1, "nfts": 1, "point,": 1, "fast": 1, "loosing": 1, "interest": 2, "people,": 1, "friendship": 1, "genuine.": 1, "_ng": 1, "_schlienz": 1, "no.": 1, "transferred,": 1, "extenuating": 1, "circumstance": 1, "tore": 1, "acl.": 1, "medical": 1, "waiver.": 1, "otp": 1, "verification": 2, "form": 3, "html,": 2, "bb16": 1, "awesome": 3, "browser-side": 2, "libraries,": 2, "resource": 3, "things.": 2, "\ud83d\udc49": 4, "explanation": 3, "33": 1, "concept": 1, "shiny": 1, "agree": 2, "extent": 1, "goal,": 1, "tactically": 2, "chance": 1, "score,": 1, "player": 2, "night.": 1, "seem": 2, "gary": 1, "team": 4, "coach,": 1, "or,": 3, "maybe,": 2, "badger": 2, "i\u2019ll": 1, "tomorrow": 1, "pas": 1, "\ud83d\udcbb": 1, "mid": 1, "\ud83d\udc68\u200d\ud83d\udcbb": 1, "earnifi": 1, "nft": 3, "_thatsme": 1, "traitor": 1, "nothing!": 1, "mean": 4, "pedantic": 2, "statistically": 1, "significant": 1, "undercount.": 1, "wanting": 2, "200-300k": 1, "ease": 1, "discussion": 1, "exposure": 1, "subsequent": 1, "pic": 1, "couple": 1, "ago.": 1, "photography.": 1, "realise": 1, "17": 1, "_yadav": 1, "naww": 1, "mbappe": 2, "rlly": 3, "wtfwtfwtf": 1, "torrentpharma": 1, "36,497": 1, "1590.00": 1, "5.80": 1, "12:18": 1, "27,18,917": 1, "20.85": 1, "5.67": 1, "12:15": 1, "happy": 3, "bdaaaayyy": 1, "grandma": 1, "front": 6, "end": 8, "recommend": 1, "ppl": 1, "sr": 1, "usd": 1, "hav": 1, "mutual": 1, "fever": 1, "spread": 1, "wz": 1, "thinkin": 1, "ab": 1, "wer": 1, "left": 2, "year.": 1, "seen": 5, "d1": 1, "coach": 2, "didnt.": 1, "playing": 1, "30": 1, "min": 1, "bisons.": 1, "become": 2, "legend": 1, "tear": 1, "_mulungi": 1, "musyoka.": 1, "apology": 1, "experience.": 2, "aware": 1, "resolve": 1, "soon.": 1, "later.": 1, "2415": 1, "94896821": 1, "titles,": 1, "aren\u2019t": 1, "28": 1, "lock": 1, "polkadot.js": 1, "told": 5, "w/o": 1, "telling": 1, "beforehand": 1, "doesnt": 3, "leave": 2, "fr": 2, "\ud83d\ude15": 1, "democracy": 1, "3": 4, "treason.": 1, "sad": 1, "lay": 2, "while;": 1, "focus": 1, "energy": 1, "finishing": 1, "neglected": 1, "proper": 1, "scratch": 1, "\ud83e\udee0": 1, "that,": 2, "airdrop": 1, "agharta": 1, "holders,": 1, "hopefully": 1, "\u2728\ud83c\udf84": 1, "generativeart": 1, "disappear": 1, "face": 1, "earth": 1, "randomly": 1, "come": 4, "pfp": 1, "saw": 1, "real": 3, "definition": 1, "foundation": 1, "neck": 1, "depends": 1, "music": 1, "taste,": 1, "nectar": 1, "good,,": 1, "pero": 1, "depressed": 1, "usual": 1, "def": 1, "ballad": 1, "tongue": 1, "smithereens,": 1, "liking": 1, "://": 1, "esp": 1, "theyre": 1, "cuz": 4, "doing,": 1, "either": 3, "__d": 1, "rn": 2, "stage": 1, "sell": 1, "rise.": 1, "covid": 2, "tool": 2, "ressource": 1, "name:": 2, "cookiecrimesjs": 1, "source:": 1, "description:": 1, "local": 1, "chrome": 1, "cooky": 1, "root": 1, "decrypting": 1, "display": 2, "json;": 1, "implementation": 2, "cookie": 1, "[cropped]": 1, "relaxing": 1, "room": 1, "massage": 3, ".hard": 1, ",soft": 1, "ladyboy": 1, "massage_in_kuwait": 3, "fuel": 3, "kuwait": 3, "southgate": 3, "fathersday": 3, "zendaya": 3, "mpesa": 3, "sample": 2, "title": 1, "8": 1, "\ud83c\udfe2": 1, "planning": 1, "2023?": 1, "me:": 1, "tailwind": 2, "ummmm": 1, "home\ud83d\ude15": 1, "tryna": 1, "stranded": 1, "with,": 1, "hard": 2, "master.": 1, "exactly,": 1, "would\u2019ve": 1, "thrown": 1, "mic": 1, "audience": 1, "dennis": 1, "iyenahie,": 1, "vast": 1, "array": 2, "knowledge": 1, "different": 3, "languages.": 1, "||": 2, "heatmap": 1, "works?": 1, "geek": 1, "melonjs/melonjs:": 1, "fresh": 1, "lightweight": 1, "varrocengineer": 1, "5,00,819": 1, "305.75": 1, "15.31": 1, "12:14": 2, "pnb": 1, "10,87,944": 1, "56.15": 1, "6.11": 1, "character": 2, "\"\u0433\":": 1, "codepoint:": 1, "u+0413": 1, "cyrillic": 2, "capital": 1, "letter": 1, "ghe": 1, "block:": 1, "version:": 1, "1.1": 1, "html:": 1, "&amp;0413;": 1, "css:": 1, "\\000413": 1, "js:": 1, "\\u0413": 1, "info:": 1, "tip": 1, "\ud83d\udca1": 1, "unique": 1, "key": 2, "\ud83d\udd01": 1, "\ud83c\udf05": 1, "\ud83c\udf07": 5, "york,": 2, "ny": 2, "\ud83d\udcaa": 6, "infrastructure": 1, "softwareengineer": 6, "insane": 1, "cant": 2, "deadline": 1, "else": 2, "overwhelmed": 1, "blink": 1, "\ud83d\ude03always": 1, "dragging": 1, "fanwars": 1, "sht": 1, "collabs": 1, "lemme": 1, "blue": 1, "bird": 1, "app": 4, "peanut": 1, "butter": 1, "grandpa": 1, "ashamed": 1, "no,": 2, "melting": 1, "brain": 1, "freezing": 1, "prop": 1, "types,": 1, "g": 1, "stress,": 1, "rust.": 1, "let": 3, "fuck": 1, "the.": 1, "battle": 1, "85": 1, "\ud83d\ude33\ud83e\udd2f": 1, "wow...": 1, "7-3": 1, "nobody": 1, "argued": 1, "bad...": 1, "quit": 1, "absurd": 1, "strawman": 1, "humane!": 1, "500k": 1, "1939": 1, "soviet": 2, "related,": 1, "ask": 3, "to.": 1, "css,": 1, "bootstrap": 2, "skill": 2, "only?": 1, "dark": 1, "smile": 1, "e": 2, "jisung": 1, "nctdream": 1, "moment": 1, "blessed": 1, "\ud83d\ude0d\ud83d\ude2d\ud83d\ude2d": 1, "___ji": 1, "pc": 1, "became": 1, "5": 2, "ill": 1, "20,": 1, "argh": 1, "annoying": 2, "nonexistent": 1, "ykyk": 1, "1timothy": 1, "@13245153s": 1, "is,": 1, "dev": 3, "ton": 2, "know,": 1, "fundamental": 1, "two,": 1, "visually": 1, "pretty": 2, "\ud83d\ude01": 1, "complex": 1, "back?": 2, "like\u2026\"": 1, "0ne22": 1, "board": 1, "beef": 1, "bastard": 1, "blaming": 1, "dreamzens": 2, "dream?": 1, "fighting": 1, "stopped": 1, "caring": 1, "abt": 2, "bother": 1, "hurt": 3, "you\u2019ll": 1, "place": 1, "be,": 1, "adult": 1, "channel": 3, "i've": 1, "seen.": 1, "2021233218": 1, "kuda": 1, "bank": 1, "mk": 1, "touch": 1, "abeg": 1, "\ud83d\ude4f": 1, "stumbled": 1, "upon.": 1, "closer": 1, "worse": 2, "gets.": 1, "article.": 1, "improve": 1, "card": 1, "\ud83e\udd70": 1, "ussr": 1, "released": 3, "caused": 1, "disability": 2, "according": 1, "source.": 1, "0%": 1, "treatment": 2, "rate,": 1, "rate": 4, "providing": 1, "substandard": 2, "excuse": 1, "barbarism": 1, "switch!!!": 1, "road": 1, "react:": 1, "journey": 1, "plain": 1, "pragmatic": 1, "xi16bnk": 1, "roman's": 1, "mania's": 1, "main": 1, "felt": 2, "forced": 1, "soon,only": 1, "earned": 1, "in,js": 1, "pirate": 1, "color": 2, "softwareengineering": 1, "bigdata": 1, "analytics": 2, "ubisoft": 1, "\"go": 1, "relax\"": 1, "sweetest": 1, "voice": 1, "\ud83d\ude2d\ud83d\ude2d\ud83d\ude2d": 3, "switch": 1, "plsssssss": 1, "gimme": 1, "transfer": 3, "portal": 1, "eligibility": 1, "(and": 1, "status),": 1, "graduate": 1, "requiring": 1, "sit": 1, "mind": 1, "reader,": 1, "protection": 1, "asked.(2/2)": 1, "arrow": 1, "common": 2, "soldier,": 1, "rather": 1, "warrior": 1, "fame,": 1, "the(1/2)": 1, "ohhh": 1, "lucky": 1, "u!!": 1, "\ud83d\ude0a": 1, "safe": 1, "travel": 1, "ph!": 1, "obstructed": 1, "view": 1, "seat": 1, "50/50": 1, "meet": 2, "enha": 1, "omg!!!": 1, "1/1": 1, "js!!!": 1, "graph": 1, "extjs": 1, "_pine": 1, "narcisist.": 1, "\ud83e\udd14\ud83d\ude44\u2049\ufe0f": 1, "yes!": 1, "coming": 2, "soon": 3, "spelling": 1, "readme": 1, "files.": 1, "777": 1, "_r_ok": 1, "held": 1, "jordan": 2, "mmmm": 1, "opp": 1, "accidentally": 1, "playlist": 1, "69": 1, "rub": 1, "omg": 2, "dabi": 1, "die": 3, "deserve": 2, "tired.": 1, "who\u2019s": 1, "tell": 4, "enough,": 2, "entirely,": 1, "breath": 1, "air.": 1, "mf.": 1, "breath.": 2, "anxiety": 1, "attack": 1, "ex": 1, "friend": 2, "horrible": 2, "now.": 2, "3kk": 1, "_thunder": 1, "cheating": 1, "lose": 1, "argument": 2, "serious": 2, "issues,": 1, "anarchist": 1, "imperial": 1, "sick...": 1, "connection": 1, "imposed": 1, "economic": 1, "depression": 1, "highest": 1, "incarceration": 2, "history": 1, "world?": 1, "breath:": 1, "\u201cjs": 1, "stripe": 1, "palantir": 1, "maga": 1, "brex": 1, "ramp\u201d": 1, "bay": 1, "area": 2, "co-oped": 1, "sightly": 1, "\ufb01nish.": 1, "come,": 1, "grace.": 1, "(3/4)": 1, "lord": 4, "naoshige": 1, "speaking": 1, "grandson,": 1, "motoshige,": 1, "said,": 1, "\"no": 1, "whether": 1, "high": 2, "rank,": 1, "li(1/4)": 1, "maintained.\"(4/4)": 1, "ne": 1, "decline": 1, "come.": 1, "ruin": 1, "time,": 1, "un(2/4)": 1, "because:": 1, "racist": 1, "wife": 1, "cut": 2, "rose": 1, "fat": 1, "cheeseburger.": 1, "ethan": 1, "teaching": 1, "backbone.js:": 1, "mvc": 1, "restful": 1, "json": 1, "interface": 1, "link:": 1, "delete": 1, "everything": 3, "together": 1, "100,000.puboic": 1, "sector": 2, "employees,": 1, "paid": 1, "dwindling": 1, "public": 1, "market,": 1, "equal": 1, "skyrocketing": 1, "debt": 1, "perpetuity.": 1, "socialism": 1, "sustainable.": 1, "abpoli": 1, "consolidation--": 1, "plan": 1, "\"jobs\"": 1, "koinos": 1, "smart": 1, "contract": 1, "transaction": 2, "mana": 1, "ground": 1, "launched": 1, "btc": 1, "modular": 1, "upgradability": 1, "integration": 1, "13:": 1, "emojify": 1, "\ud83d\ude00\ud83d\ude0a\ud83d\ude0d": 1, "javascriptmas": 1, "much.": 2, "site": 2, "heap": 1, "landing": 4, "page": 4, "chopped": 1, "version": 1, "homepage,": 1, "unused": 1, "place.": 1, "cm": 1, "driven": 1, "roberto": 1, "baggio": 1, "carlos": 1, "diego": 1, "maradona": 1, "david": 1, "beckham": 1, "kylian": 1, "leo": 1, "lionel": 1, "messi": 3, "neymar?": 1, "neymar.": 1, "scary": 1, "decided": 1, "anymore": 1, "four": 1, "years.": 1, "wake": 2, "all?": 1, "hendery/chenle": 1, "55": 1, "_0": 1, "toph": 1, "kept": 1, "sharing.": 1, "aki": 1, "\"for": 1, "reason?\"": 1, "bucket": 1, "sure!": 1, "tysm,": 1, "spared": 1, "desainer,": 1, "fav": 1, "letbme": 1, "comments.": 1, "_2023": 1, "prosecute": 1, "hollywood": 1, "dc": 1, "pedophiles..": 1, "js..": 1, "tonight!!": 1, "\ud83d\ude0d\ud83d\ude0d": 1, "79863823": 1, "\u662f\u7684\ud83d\ude02": 1, "html\u3001css\u3001javascript\u3001tomcat\u3001servlet\u3001jsp\u3001jdbc\u8fd9\u4e9b": 1, "simpplr": 1, "sr.": 1, "salesforce": 1, "india": 1, "\ud83e\udd8a": 2, "aurora": 1, "seattle,": 1, "wa": 1, "node": 1, "newfront": 1, "insurance": 1, "staff": 2, "\ud83d\uded6": 1, "wfh": 1, "netizensrepojisoo": 1, "acoty2022jisoo": 1, "mark": 2, "lee": 1, "someday": 1, "\ud83c\uddfa\ud83c\udde6\ud83e\udd1d\ud83c\uddfa\ud83c\uddf8": 1, "45": 1, "suree,": 1, "free,": 1, "hmu": 1, "talk": 1, "duplicated": 1, "traced": 1, "duplication": 1, "heavy": 1, "homepage": 1, "validate": 2, "mandatory": 1, "field": 1, "221221": 1, "jaejoong": 1, "ig-story": 1, "update": 3, "show": 2, "fwy": 1, "\ud83e\udee1": 1, "print": 1, "send": 2, "gulags.": 1, "provided": 2, "link": 2, "showed": 1, "people.": 1, "distress": 1, "disability.": 2, "limited": 1, "location": 1, "supersede": 1, "removing": 1, "causing": 1, "fnc": 1, "publishes": 1, "republican": 1, "54328214": 1, "93": 1, "go\ud83d\udc9c\ud83d\udc4d": 1, "my,": 1, "tom!": 1, "malevolent": 1, "astronomer,": 1, "actually,": 1, "mascot": 1, "idaho": 1, "potato": 1, "commission,": 1, "bowl": 1, "mr.": 1, "spud": 1, "\ud83e\udd26\ud83c\udffe\u200d\u2640\ufe0f\ud83e\udd26\ud83c\udffe\u200d\u2640\ufe0f": 1, "sign": 1, "w3schools": 1, ".com": 4, ".dev/learn/css": 1, ".info": 1, "git": 1, "git-scm": 1, "react-tutorial": 1, ".app": 1, "rapidapi": 1, ".com/learn": 1, "tailwindcss": 1, "learnpython": 1, ".org": 1, "sqlbolt": 1, "learnweb3": 1, ".io": 1, "ugh,": 1, "sucks.": 1, "fan": 2, "work,": 1, "haven\u2019t": 1, "tried.": 1, "red,": 1, "clip": 2, "rant": 1, "irks": 1, "lately": 1, "_t": 1, "bigger": 2, "fhe": 1, "bass": 1, "vetting": 1, "_077": 1, "sumanth.": 1, "sharing": 1, "content.": 1, "veerabadhra.": 1, "python,": 1, "interested": 1, "machine": 1, "candy": 1, "1306": 1, "_twt": 1, "pets?\u2026.": 1, "discovered": 1, "easier": 2, "thought.": 1, "0ny_boy": 1, "vue": 2, "direct": 1, "dom": 1, "manipulation": 1, "discouraged,": 1, "jquery": 3, "choice.": 1, "near": 1, "power": 1, "jquery.": 1, "chenle": 1, "gemes": 1, "banget": 1, "fucking": 3, "na": 1, "sm": 1, "\u201ci": 1, "laundry.\u201d": 1, "zelenskyy": 1, "bruh": 1, "ghana": 1, "day\ud83e\udd29": 1, "trading": 1, "frps": 1, "roster": 1, "clicking": 1, "certainly": 1, "start,": 1, "increasing.": 1, "possible": 1, "honest": 1, "2/3": 1, "install": 1, "nuxt": 2, "freeze": 1, "they're": 1, "burner": 1, "satisfy\ud83c\udf39\ud83c\udf39": 1, "\u629a\u5dde": 1, "democrat": 1, "bankrupt": 1, "us;": 1, "country\u2019s": 1, "standing": 2, "world": 5, "onto": 1, "power.": 1, "rule": 1, "radical": 1, "playbook.": 1, "ago": 1, "trended": 1, "_raxx": 1, "happened?!": 1, "honey?": 1, "denying": 1, "therapy": 3, "agreed": 1, "therapist": 1, "valentine\u2019s": 1, "russian": 2, "troop": 1, "bots,i\u2019m": 1, "flattered": 1, "processor": 1, "compiler": 1, "assembler": 1, "100devs": 1, "_ltd": 1, "don't...": 1, "it...": 1, "\ud83d\ude1f": 1, "forbid": 1, "capitalization": 1, "tho": 2, "entire": 1, "career": 1, "shamble": 1, "locket": 1, "coo": 1, "boo\ud83e\udd70": 1, "boilerplate": 1, "redux": 2, "saga": 1, "reduxsaga": 1, "reactnative": 1, "signed": 1, "julian": 1, "'jr": 1, "(sportbrief)'": 1, "jackson": 1, "3-year": 1, "$100m": 1, "deal.": 1, "excited": 1, "welcome": 1, "organization,": 1, "mentioned": 1, "podcast.": 1, "bcz": 1, "guju": 1, "frnds,": 1, "cathem": 1, "up.": 1, "modi": 1, "rhe": 1, "supreme": 1, "leader": 1, "favoring": 1, "gujjus,": 1, "capacity": 1, "prison.": 2, "source": 1, "humane": 1, "sweet.": 1, "ya": 1, "output": 1, "snippet?": 1, "sukiru": 1, "marry": 1, "me\uff5e\u266a": 1, "boy\uff5e\u266a": 1, "yk": 1, "breakdown": 1, "(not": 1, "literal": 1, "cmon": 1, "now)": 1, "parent": 1, "embarrassing": 1, "eber": 1, "crush": 1, "ive": 1, "learned": 1, "itll": 1, "desperate": 1, "am,": 1, "chase": 1, "first.": 1, "throw": 1, "bug,": 1, "feature!": 1, "reach": 1, "at-": 1, "bugfixing": 1, "debugging": 1, "debug": 1, "pythonprogramming": 1, "engineersahab": 1, "ui": 1, "lmfaooo": 1, "browsing": 1, "twitter,": 1, "impression": 1, "languages:": 1, "python.": 1, "dynamic": 1, "web.": 1, "calculate,": 1, "manipulate": 1, "data.": 1, "development,": 2, "applications,": 1, "dive": 1, "[mv]": 1, "super\u2605dragon": 1, "hey,": 1, "dance": 1, "ver.": 1, "\u0e1c\u0e48\u0e32\u0e19": 1, "multi-step": 2, "android": 2, "coder": 2, "__": 1, "promise": 1, "too.": 1, "1st": 1, "2nd": 1, "mom": 1, "hoe": 1, "disappointment.": 1, "y\u2019all": 3, "satisfied.": 1, "understand!!!": 1, "break.": 1, "please.": 1, "amazing": 1, "complete": 1, "non": 1, "stressed": 1, "person.": 1, "annoying,": 1, "centered,": 1, "dislike": 1, "everthing": 1, "fucked": 1, "\ud83d\ude18\ud83d\udd2b\ud83d\udd2b": 1, "clocked": 1, "sitting": 1, "crazy": 2, "censored": 1, "minority": 1, "kid": 1, "yea": 1, "huey": 1, "freeman": 1, "alice": 1, "wonderland": 1, "18": 1, "random,": 1, "bring": 1, "cape": 2, "rock": 1, "binance": 1, "news": 1, "101:": 1, "fake": 1, "bald": 1, "headed": 1, "lil": 1, "suggest": 1, "rarely": 1, "stripes.": 1, "handsome": 1, "\ud83d\udc96": 1, "front-end": 1, "wrote": 1, "webpack.": 1, "read.": 1, "there.": 1, "initiatecheckout": 1, "setup": 2, "scraping": 1, "product": 3, "universal": 2, "datalayer": 1, "custom": 1, "variable.": 1, "upload": 1, "feed": 2, "commerce": 1, "manager": 1, "ctx": 1, "domain": 1, "zach": 1, "aguilar": 1, "istg": 1, "blush": 1, "hear": 1, "zachpls": 1, "bf": 1, "report": 1, "police\ud83d\ude4f\ud83d\ude4f\ud83d\ude4f": 1, "momma": 1, "25": 1, "ong\ud83d\ude02": 1, "hypothetical": 1, "poorer": 1, "death": 2, "recognize": 1, "useless": 1, "metric?": 1, "adele": 1, "besties": 1, "la": 1, "serie": 1, "de": 1, "\"you": 1, "js\".": 1, "straight": 1, "writing,": 1, "akutami": 1, "introduce": 1, "legendary": 1, "woman,": 1, "female": 1, "developed": 1, "\"she's": 1, "man\"": 1, "kill": 1, "chapter": 1, "later": 1, "veautiful": 1, "days\ud80c\udc83\u2661": 1, "02": 1, "2030": 1, "365": 1, "2345": 1, "dogs.": 1, "upset.": 1, "salty": 1, "else.": 1, "nigerian": 1, "bloody": 1, "comedian": 1, "_lindeen": 1, "laid": 1, "skyler": 1, "almost": 1, "rak": 1, "cak": 2, "candy,": 1, "let\u2019s": 1, "7dream": 1, "deserving": 1, "pak,": 1, "rak,": 1, "cb": 1, "\u201cpoly\u201d": 1, "classic\u2026": 1, "options,": 1, "\ud83d\ude0c": 1, "compassion": 1, "mother": 1, "nurture": 1, "beat": 1, "hwr": 1, "rewatch": 1, "beginning": 1, "s5...": 1, "shopping": 1, "cart": 1, "psd": 1, "e-commerce": 1, "campaign": 1, "season.": 2, "fax": 1, "lol\u2026engineers": 1, "geeking": 1, "out,": 1, "dont": 3, "media\ud83d\ude02\ud83d\ude02\ud83d\ude02": 1, "pink": 1, "\ud83d\udd25": 1, "flexport": 2, "application": 2, "security": 1, "boston,": 1, "ma,": 1, "\u270b": 1, "reliability": 1, "bellevue,": 1, "wa,": 1, "san": 1, "francisco,": 1, "ca": 1, "sre": 1, "terraform": 1, "aws": 1, "mew": 2, "lotta": 1, "gettin": 1, "railed": 1, "tbh.": 1, "ion": 1, "censore": 1, "\ud83d\ude4f\ud83c\udffd": 1, "coworker": 1, "comfortable": 1, "speed": 1, "ecosystem": 1, "compared": 1, "(non": 1, "retail)": 1, "realizing": 1, "personal": 1, "economical": 1, "bit.": 1, "alot": 1, "reviewing": 1, "position": 1, "vacations.": 1, "(after": 1, "years)...": 1, "hotel": 2, "(us)": 1, "book": 1, "stay": 1, "early": 1, "15%": 1, "off,": 1, "summer": 1, "reliable": 1, "grade": 1, "your;": 1, "\u2713nursing": 1, "\u2713essays": 1, "\u2713chemistry": 2, "\u2713finance": 1, "\u2713physics": 2, "\u2713biology": 1, "\u2713algebra": 1, "\u2713calculus": 1, "\u2713essay": 1, "pay": 1, "\u2713assignment": 1, "jhen\u00e9": 1, "yo": 1, "esteem\"\ud83e\udd23\ud83d\udcaf": 1, "async": 1, "function": 1, "hook": 2, "useeffect": 1, "(typescript/js)?": 1, "just..": 1, "picked": 3, "teacher,": 2, "it\u2026..": 1, "[emitting": 1, "pitched": 1, "noise": 1, "surrounding": 2, "burning": 1, "head": 2, "spin": 1, "360": 1, "degress": 1, "neck]": 1, "raw": 1, "evm": 2, "calldata": 1, "depth,": 1, "published": 1, "article": 1, "explaining": 1, "line-by-line!": 1, "defi": 1, "ethereum": 1, "web3sec": 1, "progress": 1, "\ud83d\udcac": 1, "\"thanks": 1, "interlop": 1, "\ud83d\ude4c\"": 1, "optimistic": 1, "javascript's": 1, "future": 1, "\ud83e\udd23\ud83d\udcaa": 1, "2highh": 1, "\ufb01rm": 1, "missing": 1, "chance,": 1, "well.": 1, "it\u2026": 1, "\ud83d\ude44": 1, "713": 1, "he's": 1, "speaking...": 1, "sounded": 1, "lowkey": 1, "flattered,": 1, ".:": 1, "what\u2019s": 1, "plan?": 1, "expanding": 1, "child": 1, "tax": 1, "credit?": 1, "healthcare?": 1, "(cont)": 1, "familiar": 1, "similarity": 1, "alpinejs": 1, "multi-page": 1, "application.": 1, "data": 2, "query": 1, "params": 1, "path": 1, "variables?": 1, "js?": 1, "initializing": 1, "thymeleaf": 1, "dude": 1, "\ud83d\ude2d\ud83d\ude2d\u270b": 1, "continuation": 1, "\"staying": 1, "productive": 1, "911": 1, "ringing": 1, "blast.": 1, "fiew": 1, "happy.": 1, "qatar": 2, "cup": 2, "explainer": 1, "economics": 1, "\"join": 1, "action\"": 1, "everyone": 1, "drunk": 1, "hopium.": 1, "cast": 1, "down,": 1, "appear": 1, "strong.": 1, "nagercoil": 2, "css3": 1, "googleanalytics": 1, "dataanalytics": 1, "dataanalyticwithpowerbi": 1, "dataanalyticswithexcel": 1, "sqlfordataanalytics.": 1, "traininginstitutenagercoil": 1, "schedule": 2, "appointment": 2, "relaxed": 2, "costoflivingcrisis": 2, "4rs4ndsc4rs": 1, "lesbian": 1, "flag": 1, "yes...": 1, "existing": 1, "carceral": 1, "state": 1, "inhumane": 1, "worry": 2, "hero": 2, "zim": 2, "mandela": 2, "27yrs,he": 2, "came": 2, "industrialised": 2, "nation": 2, "africa,ed": 2, "iron": 1, "100daysofcoding": 2, "accordian": 1, "component-": 1, "instead": 1, "hide": 1, "none": 1, "property": 1, "also,": 1, "class": 1, "casuals": 1, "lazard": 1, "clearly": 1, "wasn\u2019t": 1, "supposed": 1, "gf,": 1, "lmfaoooo": 1, "\ud83c\udfaf": 1, "development?": 1, "\u2705": 1, "efficient.": 1, "webapp": 1, "appdevelopment": 1, "redappletech": 1, "youtube": 1, "fireship": 1, "=&gt;": 5, "100": 1, "darek": 1, "banas": 1, "simplified": 3, "hitesh": 1, "choudhary": 1, "big": 1, "topic": 1, "4.traversy": 1, "medium": 1, "quality": 1, "vms,": 1, "run": 2, "puppeteer": 1, "silenium": 1, "users.": 1, "everyday": 1, "bone": 1, "dai": 1, "recent": 1, "years,": 1, "learning?": 1, "syntax": 1, "benefit": 1, "effort?": 1, "profile": 1, "file": 1, "hijacking": 1, "follwer": 1, "8billion": 1, "multiplying": 1, "billion": 1, "conviction.": 1, "meesi": 1, "copa-": 1, "rigged.": 2, "belon-": 1, "rigged": 2, "mesi": 1, "finallisa-": 1, "friendly": 1, "match": 1, "cup-": 1, "well": 1, "description": 1, "nunjucks": 1, "babygirl": 1, "ysernqme": 1, "125rg1": 1, "jonestown": 1, "robux": 1, "_love": 1, "_nft": 1, "missed": 1, "late": 1, "party...": 1, "loving": 1, "andor.": 1, "tweet.": 1, "alright": 1, "provide": 1, "\"humanitarian": 1, "organization\"": 1}